{
    "entry": [
        {
            "fullUrl": "urn:id:100",
            "resource": {
                "id": "100",
                "birthDate": "1980-02-02",
                "gender": "female",
                "identifier": [
                    {
                        "assigner": {
                            "reference": "Organization/A"
                        },
                        "type": {
                            "coding": [
                                {
                                    "code": "MR",
                                    "display": "Medical record number",
                                    "system": "http://terminology.hl7.org/CodeSystem/v2-0203"
                                }
                            ],
                            "text": "MR"
                        },
                        "value": "PID1234"
                    },
                    {
                        "assigner": {
                            "reference": "Organization/USA"
                        },
                        "type": {
                            "coding": [
                                {
                                    "code": "SS",
                                    "display": "Social Security number",
                                    "system": "http://terminology.hl7.org/CodeSystem/v2-0203"
                                }
                            ],
                            "text": "SS"
                        },
                        "value": "1234568965"
                    }
                ],
                "name": [
                    {
                        "family": "DOE",
                        "given": [
                            "JOHN"
                        ]
                    }
                ],
                "resourceType": "Patient"
            }
        },
        {
            "fullUrl": "urn:id:3a9155c1-cf2d-4ef7-9110-09beaa189856",
            "request": {
                "method": "PUT",
                "url": "Encounter/3a9155c1-cf2d-4ef7-9110-09beaa189856"
            },
            "resource": {
                "id": "3a9155c1-cf2d-4ef7-9110-09beaa189856",
                "class": {
                    "code": "ff"
                },
                "hospitalization": {
                    "preAdmissionIdentifier": {
                        "value": "ABC"
                    },
                    "specialArrangement": [
                        {
                            "coding": [
                                {
                                    "code": "B6",
                                    "display": "Pregnant",
                                    "system": "http://terminology.hl7.org/CodeSystem/v2-0009"
                                }
                            ],
                            "text": "B6"
                        }
                    ],
                    "specialCourtesy": [
                        {
                            "text": "E"
                        }
                    ]
                },
                "identifier": [
                    {
                        "value": "48390"
                    }
                ],
                "length": {
                    "unit": "Minutes"
                },
                "period": {
                    "start": "2014-09-12T22:00:00+08:00"
                },
                "serviceType": {
                    "coding": [
                        {
                            "code": "MED",
                            "display": "Medical Service",
                            "system": "http://terminology.hl7.org/CodeSystem/v2-0069"
                        }
                    ],
                    "text": "MED"
                },
                "status": "arrived",
                "subject": {
                    "reference": "Patient/100"
                },
                "type": [
                    {
                        "text": "EL"
                    }
                ],
                "resourceType": "Encounter"
            }
        },
        {
            "fullUrl": "urn:id:9303ef00-5df7-461d-ac56-77e686bc33fb",
            "request": {
                "method": "PUT",
                "url": "Observation/9303ef00-5df7-461d-ac56-77e686bc33fb"
            },
            "resource": {
                "id": "9303ef00-5df7-461d-ac56-77e686bc33fb",
                "code": {
                    "coding": [
                        {
                            "code": "1234"
                        }
                    ]
                },
                "encounter": {
                    "reference": "Encounter/3a9155c1-cf2d-4ef7-9110-09beaa189856"
                },
                "identifier": [
                    {
                        "value": "1234_"
                    }
                ],
                "issued": "2012-09-12T01:12:30+08:00",
                "performer": [
                    {
                        "reference": "Practitioner/5259f7c2-16d7-4907-afa2-97197ecf3011"
                    },
                    {
                        "reference": "Practitioner/1441caa0-203a-40c2-916e-136df006ae1a"
                    },
                    {
                        "reference": "Practitioner/5ccd87d5-0ade-4486-b2f0-92e1e19c74a0"
                    },
                    {
                        "reference": "Practitioner/44bf90a7-357a-4ec6-b35c-864d381f1b26"
                    }
                ],
                "status": "final",
                "subject": {
                    "reference": "Patient/100"
                },
                "valueString": "ECHOCARDIOGRAPHIC REPORT",
                "resourceType": "Observation"
            }
        },
        {
            "fullUrl": "urn:id:5259f7c2-16d7-4907-afa2-97197ecf3011",
            "request": {
                "method": "PUT",
                "url": "Practitioner/5259f7c2-16d7-4907-afa2-97197ecf3011"
            },
            "resource": {
                "id": "5259f7c2-16d7-4907-afa2-97197ecf3011",
                "identifier": [
                    {
                        "value": "2740"
                    }
                ],
                "name": [
                    {
                        "family": "TRDSE",
                        "given": [
                            "Janetary"
                        ],
                        "text": "Janetary TRDSE"
                    }
                ],
                "resourceType": "Practitioner"
            }
        },
        {
            "fullUrl": "urn:id:1441caa0-203a-40c2-916e-136df006ae1a",
            "request": {
                "method": "PUT",
                "url": "Practitioner/1441caa0-203a-40c2-916e-136df006ae1a"
            },
            "resource": {
                "id": "1441caa0-203a-40c2-916e-136df006ae1a",
                "identifier": [
                    {
                        "value": "2913"
                    }
                ],
                "name": [
                    {
                        "family": "MRTTE",
                        "given": [
                            "Darren"
                        ],
                        "text": "Darren MRTTE"
                    }
                ],
                "resourceType": "Practitioner"
            }
        },
        {
            "fullUrl": "urn:id:5ccd87d5-0ade-4486-b2f0-92e1e19c74a0",
            "request": {
                "method": "PUT",
                "url": "Practitioner/5ccd87d5-0ade-4486-b2f0-92e1e19c74a0"
            },
            "resource": {
                "id": "5ccd87d5-0ade-4486-b2f0-92e1e19c74a0",
                "identifier": [
                    {
                        "value": "3065"
                    }
                ],
                "name": [
                    {
                        "family": "MGHOBT",
                        "given": [
                            "Paul"
                        ],
                        "text": "Paul MGHOBT"
                    }
                ],
                "resourceType": "Practitioner"
            }
        },
        {
            "fullUrl": "urn:id:44bf90a7-357a-4ec6-b35c-864d381f1b26",
            "request": {
                "method": "PUT",
                "url": "Practitioner/44bf90a7-357a-4ec6-b35c-864d381f1b26"
            },
            "resource": {
                "id": "44bf90a7-357a-4ec6-b35c-864d381f1b26",
                "identifier": [
                    {
                        "value": "4723"
                    }
                ],
                "name": [
                    {
                        "family": "LOTHDEW",
                        "given": [
                            "Robert"
                        ],
                        "text": "Robert LOTHDEW"
                    }
                ],
                "resourceType": "Practitioner"
            }
        },
        {
            "fullUrl": "urn:id:23b291c7-81f0-4ea2-b8ad-34e1fb9c711c",
            "request": {
                "method": "PUT",
                "url": "AllergyIntolerance/23b291c7-81f0-4ea2-b8ad-34e1fb9c711c"
            },
            "resource": {
                "id": "23b291c7-81f0-4ea2-b8ad-34e1fb9c711c",
                "clinicalStatus": {
                    "coding": [
                        {
                            "code": "active",
                            "display": "Active",
                            "system": "http://terminology.hl7.org/CodeSystem/allergyintolerance-clinical"
                        }
                    ]
                },
                "code": {
                    "coding": [
                        {
                            "code": "00000741",
                            "display": "OXYCODONE"
                        }
                    ],
                    "text": "OXYCODONE"
                },
                "criticality": "unable-to-assess",
                "patient": {
                    "reference": "Patient/100"
                },
                "reaction": [
                    {
                        "manifestation": [
                            {
                                "text": "HYPOTENSION"
                            }
                        ]
                    }
                ],
                "verificationStatus": {
                    "coding": [
                        {
                            "code": "confirmed",
                            "display": "Confirmed",
                            "system": "http://terminology.hl7.org/CodeSystem/allergyintolerance-verification"
                        }
                    ]
                },
                "resourceType": "AllergyIntolerance"
            }
        },
        {
            "fullUrl": "urn:id:fc3e57c1-1606-4320-979e-bf5946a1674d",
            "request": {
                "method": "PUT",
                "url": "AllergyIntolerance/fc3e57c1-1606-4320-979e-bf5946a1674d"
            },
            "resource": {
                "id": "fc3e57c1-1606-4320-979e-bf5946a1674d",
                "clinicalStatus": {
                    "coding": [
                        {
                            "code": "active",
                            "display": "Active",
                            "system": "http://terminology.hl7.org/CodeSystem/allergyintolerance-clinical"
                        }
                    ]
                },
                "code": {
                    "coding": [
                        {
                            "code": "00001433",
                            "display": "TRAMADOL"
                        }
                    ],
                    "text": "TRAMADOL"
                },
                "criticality": "unable-to-assess",
                "patient": {
                    "reference": "Patient/100"
                },
                "reaction": [
                    {
                        "manifestation": [
                            {
                                "text": "SEIZURES"
                            },
                            {
                                "text": "VOMITING"
                            }
                        ]
                    }
                ],
                "verificationStatus": {
                    "coding": [
                        {
                            "code": "confirmed",
                            "display": "Confirmed",
                            "system": "http://terminology.hl7.org/CodeSystem/allergyintolerance-verification"
                        }
                    ]
                },
                "resourceType": "AllergyIntolerance"
            }
        }
    ],
    "type": "transaction",
    "resourceType": "Bundle"
}