{
    "primaryPatientResourceId": "100",
    "primaryPatientResourceEntry": {
        "fullUrl": "urn:id:100",
        "resource": {
            "resourceType": "Patient",
            "id": "100",
            "identifier": [
                {
                    "type": {
                        "coding": [
                            {
                                "system": "http://terminology.hl7.org/CodeSystem/v2-0203",
                                "code": "MR",
                                "display": "Medical record number"
                            }
                        ],
                        "text": "MR"
                    },
                    "value": "PID1234",
                    "assigner": {
                        "reference": "Organization/A"
                    }
                },
                {
                    "type": {
                        "coding": [
                            {
                                "system": "http://terminology.hl7.org/CodeSystem/v2-0203",
                                "code": "SS",
                                "display": "Social Security number"
                            }
                        ],
                        "text": "SS"
                    },
                    "value": "1234568965",
                    "assigner": {
                        "reference": "Organization/USA"
                    }
                }
            ],
            "name": [
                {
                    "family": "DOE",
                    "given": [
                        "JOHN"
                    ]
                }
            ],
            "gender": "female",
            "birthDate": "1980-02-02"
        }
    },
    "patientBatch": [
        {
            "resourceType": "Bundle",
            "id": "c66b6ed3-8fe6-4b04-84a5-4adc7c871176",
            "meta": {
                "lastUpdated": "2021-05-11T13:01:06.726+01:00"
            },
            "type": "collection",
            "entry": [
                {
                    "fullUrl": "urn:uuid:MessageHeader/ec895663-7a99-387b-9197-eacd77acce5e",
                    "resource": {
                        "resourceType": "MessageHeader",
                        "id": "ec895663-7a99-387b-9197-eacd77acce5e",
                        "eventCoding": {
                            "system": "http://terminology.hl7.org/CodeSystem/v2-0003",
                            "code": "A01",
                            "display": "ADT/ACK - Admit/visit notification"
                        },
                        "destination": [
                            {
                                "name": "PACS",
                                "endpoint": "050"
                            }
                        ],
                        "source": {
                            "name": "SE050",
                            "endpoint": "4086::132:2A57:3C28"
                        },
                        "reason": {
                            "coding": [
                                {
                                    "system": "http://terminology.hl7.org/CodeSystem/message-reasons-encounter",
                                    "code": "admit",
                                    "display": "Admit"
                                }
                            ]
                        }
                    }
                },
                {
                    "fullUrl": "urn:uuid:Patient/dbc91865-e52c-4c66-b0a5-4c56a057f61b",
                    "resource": {
                        "resourceType": "Patient",
                        "id": "dbc91865-e52c-4c66-b0a5-4c56a057f61b",
                        "identifier": [
                            {
                                "type": {
                                    "coding": [
                                        {
                                            "system": "http://terminology.hl7.org/CodeSystem/v2-0203",
                                            "code": "MR",
                                            "display": "Medical record number"
                                        }
                                    ],
                                    "text": "MR"
                                },
                                "value": "PID1234",
                                "assigner": {
                                    "reference": "Organization/A"
                                }
                            },
                            {
                                "type": {
                                    "coding": [
                                        {
                                            "system": "http://terminology.hl7.org/CodeSystem/v2-0203",
                                            "code": "SS",
                                            "display": "Social Security number"
                                        }
                                    ],
                                    "text": "SS"
                                },
                                "value": "1234568965",
                                "assigner": {
                                    "reference": "Organization/USA"
                                }
                            }
                        ],
                        "name": [
                            {
                                "family": "DOE",
                                "given": [
                                    "JOHN"
                                ]
                            }
                        ],
                        "gender": "female",
                        "birthDate": "1980-02-02"
                    }
                },
                {
                    "fullUrl": "urn:uuid:Organization/A",
                    "resource": {
                        "resourceType": "Organization",
                        "id": "A",
                        "name": "Assigning Authority"
                    }
                },
                {
                    "fullUrl": "urn:uuid:Organization/USA",
                    "resource": {
                        "resourceType": "Organization",
                        "id": "USA",
                        "name": "Assigning Authority"
                    }
                },
                {
                    "fullUrl": "urn:uuid:Encounter/3a9155c1-cf2d-4ef7-9110-09beaa189856",
                    "resource": {
                        "resourceType": "Encounter",
                        "id": "3a9155c1-cf2d-4ef7-9110-09beaa189856",
                        "identifier": [
                            {
                                "value": "visit-10"
                            }
                        ],
                        "status": "arrived",
                        "class": {
                            "code": "ff"
                        },
                        "type": [
                            {
                                "text": "EL"
                            }
                        ],
                        "serviceType": {
                            "coding": [
                                {
                                    "system": "http://terminology.hl7.org/CodeSystem/v2-0069",
                                    "code": "MED",
                                    "display": "Medical Service"
                                }
                            ],
                            "text": "MED"
                        },
                        "subject": {
                            "reference": "Patient/dbc91865-e52c-4c66-b0a5-4c56a057f61b"
                        },
                        "period": {
                            "start": "2014-09-12T22:00:00+08:00"
                        },
                        "length": {
                            "unit": "Minutes"
                        },
                        "hospitalization": {
                            "preAdmissionIdentifier": {
                                "value": "ABC"
                            },
                            "specialCourtesy": [
                                {
                                    "text": "E"
                                }
                            ],
                            "specialArrangement": [
                                {
                                    "coding": [
                                        {
                                            "system": "http://terminology.hl7.org/CodeSystem/v2-0009",
                                            "code": "B6",
                                            "display": "Pregnant"
                                        }
                                    ],
                                    "text": "B6"
                                }
                            ]
                        }
                    }
                },
                {
                    "fullUrl": "urn:uuid:Observation/9303ef00-5df7-461d-ac56-77e686bc33fb",
                    "resource": {
                        "resourceType": "Observation",
                        "id": "9303ef00-5df7-461d-ac56-77e686bc33fb",
                        "identifier": [
                            {
                                "value": "1234_"
                            }
                        ],
                        "status": "final",
                        "code": {
                            "coding": [
                                {
                                    "code": "1234"
                                }
                            ]
                        },
                        "subject": {
                            "reference": "Patient/dbc91865-e52c-4c66-b0a5-4c56a057f61b"
                        },
                        "encounter": {
                            "reference": "Encounter/3a9155c1-cf2d-4ef7-9110-09beaa189856"
                        },
                        "issued": "2012-09-12T01:12:30+08:00",
                        "performer": [
                            {
                                "reference": "Practitioner/5259f7c2-16d7-4907-afa2-97197ecf3011"
                            },
                            {
                                "reference": "Practitioner/1441caa0-203a-40c2-916e-136df006ae1a"
                            },
                            {
                                "reference": "Practitioner/5ccd87d5-0ade-4486-b2f0-92e1e19c74a0"
                            },
                            {
                                "reference": "Practitioner/44bf90a7-357a-4ec6-b35c-864d381f1b26"
                            }
                        ],
                        "valueString": "ECHOCARDIOGRAPHIC REPORT"
                    }
                },
                {
                    "fullUrl": "urn:uuid:Practitioner/5259f7c2-16d7-4907-afa2-97197ecf3011",
                    "resource": {
                        "resourceType": "Practitioner",
                        "id": "5259f7c2-16d7-4907-afa2-97197ecf3011",
                        "identifier": [
                            {
                                "value": "2740"
                            }
                        ],
                        "name": [
                            {
                                "text": "Janetary TRDSE",
                                "family": "TRDSE",
                                "given": [
                                    "Janetary"
                                ]
                            }
                        ]
                    }
                },
                {
                    "fullUrl": "urn:uuid:Practitioner/1441caa0-203a-40c2-916e-136df006ae1a",
                    "resource": {
                        "resourceType": "Practitioner",
                        "id": "1441caa0-203a-40c2-916e-136df006ae1a",
                        "identifier": [
                            {
                                "value": "2913"
                            }
                        ],
                        "name": [
                            {
                                "text": "Darren MRTTE",
                                "family": "MRTTE",
                                "given": [
                                    "Darren"
                                ]
                            }
                        ]
                    }
                },
                {
                    "fullUrl": "urn:uuid:Practitioner/5ccd87d5-0ade-4486-b2f0-92e1e19c74a0",
                    "resource": {
                        "resourceType": "Practitioner",
                        "id": "5ccd87d5-0ade-4486-b2f0-92e1e19c74a0",
                        "identifier": [
                            {
                                "value": "3065"
                            }
                        ],
                        "name": [
                            {
                                "text": "Paul MGHOBT",
                                "family": "MGHOBT",
                                "given": [
                                    "Paul"
                                ]
                            }
                        ]
                    }
                },
                {
                    "fullUrl": "urn:uuid:Practitioner/44bf90a7-357a-4ec6-b35c-864d381f1b26",
                    "resource": {
                        "resourceType": "Practitioner",
                        "id": "44bf90a7-357a-4ec6-b35c-864d381f1b26",
                        "identifier": [
                            {
                                "value": "4723"
                            }
                        ],
                        "name": [
                            {
                                "text": "Robert LOTHDEW",
                                "family": "LOTHDEW",
                                "given": [
                                    "Robert"
                                ]
                            }
                        ]
                    }
                },
                {
                    "fullUrl": "urn:uuid:AllergyIntolerance/23b291c7-81f0-4ea2-b8ad-34e1fb9c711c",
                    "resource": {
                        "resourceType": "AllergyIntolerance",
                        "id": "23b291c7-81f0-4ea2-b8ad-34e1fb9c711c",
                        "clinicalStatus": {
                            "coding": [
                                {
                                    "system": "http://terminology.hl7.org/CodeSystem/allergyintolerance-clinical",
                                    "code": "active",
                                    "display": "Active"
                                }
                            ]
                        },
                        "verificationStatus": {
                            "coding": [
                                {
                                    "system": "http://terminology.hl7.org/CodeSystem/allergyintolerance-verification",
                                    "code": "confirmed",
                                    "display": "Confirmed"
                                }
                            ]
                        },
                        "criticality": "unable-to-assess",
                        "code": {
                            "coding": [
                                {
                                    "code": "00000741",
                                    "display": "OXYCODONE"
                                }
                            ],
                            "text": "OXYCODONE"
                        },
                        "patient": {
                            "reference": "Patient/dbc91865-e52c-4c66-b0a5-4c56a057f61b"
                        },
                        "reaction": [
                            {
                                "manifestation": [
                                    {
                                        "text": "HYPOTENSION"
                                    }
                                ]
                            }
                        ]
                    }
                },
                {
                    "fullUrl": "urn:uuid:AllergyIntolerance/fc3e57c1-1606-4320-979e-bf5946a1674d",
                    "resource": {
                        "resourceType": "AllergyIntolerance",
                        "id": "fc3e57c1-1606-4320-979e-bf5946a1674d",
                        "clinicalStatus": {
                            "coding": [
                                {
                                    "system": "http://terminology.hl7.org/CodeSystem/allergyintolerance-clinical",
                                    "code": "active",
                                    "display": "Active"
                                }
                            ]
                        },
                        "verificationStatus": {
                            "coding": [
                                {
                                    "system": "http://terminology.hl7.org/CodeSystem/allergyintolerance-verification",
                                    "code": "confirmed",
                                    "display": "Confirmed"
                                }
                            ]
                        },
                        "criticality": "unable-to-assess",
                        "code": {
                            "coding": [
                                {
                                    "code": "00001433",
                                    "display": "TRAMADOL"
                                }
                            ],
                            "text": "TRAMADOL"
                        },
                        "patient": {
                            "reference": "Patient/dbc91865-e52c-4c66-b0a5-4c56a057f61b"
                        },
                        "reaction": [
                            {
                                "manifestation": [
                                    {
                                        "text": "SEIZURES"
                                    },
                                    {
                                        "text": "VOMITING"
                                    }
                                ]
                            }
                        ]
                    }
                }
            ]
        },
        {
            "resourceType": "Bundle",
            "id": "7c2721aa-a676-4d48-a8ee-e8b8654934a0",
            "meta": {
                "lastUpdated": "2021-05-13T12:22:04.841+01:00"
            },
            "type": "collection",
            "entry": [
                {
                    "fullUrl": "urn:uuid:Patient/49679a99-3d7c-4491-a184-dd36598c4162",
                    "resource": {
                        "resourceType": "Patient",
                        "id": "49679a99-3d7c-4491-a184-dd36598c4162",
                        "identifier": [
                            {
                                "type": {
                                    "coding": [
                                        {
                                            "system": "http://terminology.hl7.org/CodeSystem/v2-0203",
                                            "code": "MR",
                                            "display": "Medical record number"
                                        }
                                    ],
                                    "text": "MR"
                                },
                                "value": "82223",
                                "assigner": {
                                    "reference": "Organization/AssigningAuthority"
                                }
                            }
                        ],
                        "name": [
                            {
                                "family": "TEST",
                                "given": [
                                    "PATIENT"
                                ]
                            }
                        ],
                        "gender": "female",
                        "birthDate": "2002-03-03"
                    }
                },
                {
                    "fullUrl": "urn:uuid:Organization/AssigningAuthority",
                    "resource": {
                        "resourceType": "Organization",
                        "id": "AssigningAuthority",
                        "name": "Assigning Authority"
                    }
                },
                {
                    "fullUrl": "urn:uuid:Encounter/1c9259d4-8f32-4af4-85c3-9c568849bb01",
                    "resource": {
                        "resourceType": "Encounter",
                        "id": "1c9259d4-8f32-4af4-85c3-9c568849bb01",
                        "identifier": [
                            {
                                "value": "visit-10"
                            }
                        ],
                        "status": "unknown",
                        "class": {
                            "code": "R"
                        },
                        "subject": {
                            "reference": "Patient/49679a99-3d7c-4491-a184-dd36598c4162"
                        },
                        "length": {
                            "unit": "Minutes"
                        }
                    }
                },
                {
                    "fullUrl": "urn:uuid:Immunization/3dd8cd7f-9fa6-4e4f-b77a-3d9f4ae10083",
                    "resource": {
                        "resourceType": "Immunization",
                        "id": "3dd8cd7f-9fa6-4e4f-b77a-3d9f4ae10083",
                        "identifier": [
                            {
                                "value": "4242546"
                            }
                        ],
                        "status": "completed",
                        "vaccineCode": {
                            "coding": [
                                {
                                    "system": "http://hl7.org/fhir/sid/cvx",
                                    "code": "48",
                                    "display": "HPV, quadrivalent"
                                }
                            ],
                            "text": "HPV, quadrivalent"
                        },
                        "patient": {
                            "reference": "Patient/49679a99-3d7c-4491-a184-dd36598c4162"
                        },
                        "encounter": {
                            "reference": "Encounter/1c9259d4-8f32-4af4-85c3-9c568849bb01"
                        },
                        "occurrenceDateTime": "2014-07-01T04:10:38+08:00",
                        "primarySource": true,
                        "reportOrigin": {
                            "coding": [
                                {
                                    "code": "00",
                                    "display": "New Immunization"
                                }
                            ],
                            "text": "New Immunization"
                        },
                        "manufacturer": {
                            "reference": "Organization/b53e6462-da5a-4aa7-be93-c7c5c1a27cc7"
                        },
                        "lotNumber": "L987",
                        "site": {
                            "coding": [
                                {
                                    "code": "LA",
                                    "display": "Leftarm"
                                }
                            ],
                            "text": "Leftarm"
                        },
                        "route": {
                            "coding": [
                                {
                                    "code": "C28161",
                                    "display": "Intramuscular"
                                }
                            ],
                            "text": "Intramuscular"
                        },
                        "performer": [
                            {
                                "function": {
                                    "coding": [
                                        {
                                            "system": "http://terminology.hl7.org/CodeSystem/v2-0443",
                                            "code": "AP"
                                        }
                                    ],
                                    "text": "Administering Provide"
                                },
                                "actor": {
                                    "reference": "Practitioner/3a201740-ac7f-4adb-aa47-96e2c2a2e5fd"
                                }
                            }
                        ],
                        "programEligibility": [
                            {
                                "coding": [
                                    {
                                        "code": "V01"
                                    }
                                ],
                                "text": "Not VFC"
                            }
                        ],
                        "fundingSource": {
                            "coding": [
                                {
                                    "code": "VXC2"
                                }
                            ],
                            "text": "STATE FUNDS"
                        }
                    }
                },
                {
                    "fullUrl": "urn:uuid:Practitioner/3a201740-ac7f-4adb-aa47-96e2c2a2e5fd",
                    "resource": {
                        "resourceType": "Practitioner",
                        "id": "3a201740-ac7f-4adb-aa47-96e2c2a2e5fd",
                        "identifier": [
                            {
                                "value": "NPI001"
                            }
                        ],
                        "name": [
                            {
                                "text": "ClinicianFirstName LastName",
                                "family": "LastName",
                                "given": [
                                    "ClinicianFirstName"
                                ]
                            }
                        ]
                    }
                },
                {
                    "fullUrl": "urn:uuid:Organization/b53e6462-da5a-4aa7-be93-c7c5c1a27cc7",
                    "resource": {
                        "resourceType": "Organization",
                        "id": "b53e6462-da5a-4aa7-be93-c7c5c1a27cc7",
                        "identifier": [
                            {
                                "value": "MSD"
                            }
                        ],
                        "name": "Merck"
                    }
                }
            ]
        },
        {
            "resourceType": "Bundle",
            "id": "c66b6ed3-8fe6-4b04-84a5-4adc7c871176",
            "meta": {
                "lastUpdated": "2021-05-11T13:01:06.726+01:00"
            },
            "type": "collection",
            "entry": [
                {
                    "fullUrl": "urn:id:encounter3",
                    "resource": {
                        "id": "encounter3",
                        "meta": {
                            "lastUpdated": "2021-03-23T22:13:45.903000+00:00"
                        },
                        "class": {
                            "code": "OBSENC",
                            "display": "observation encounter",
                            "system": "http://terminology.hl7.org/CodeSystem/v3-ActCode"
                        },
                        "identifier": [
                            {
                                "value": "visit-10"
                            }
                        ],
                        "period": {
                            "start": "2021-05-13T11:00:00+08:00"
                        },
                        "status": "finished",
                        "subject": {
                            "reference": "Patient/pat12345"
                        },
                        "resourceType": "Encounter"
                    }
                }
            ]
        }
    ]
}