{
    "entry": [
        {
            "fullUrl": "urn:id:evb200",
            "request": {
                "method": "PUT",
                "url": "Encounter/evb200"
            },
            "resource": {
                "id": "evb200",
                "meta": {
                    "lastUpdated": "2021-03-23T22:13:45.903000+00:00"
                },
                "class": {
                    "code": "OBSENC",
                    "display": "observation encounter",
                    "system": "http://terminology.hl7.org/CodeSystem/v3-ActCode"
                },
                "identifier": [
                    {
                        "value": "visit104"
                    }
                ],
                "status": "finished",
                "subject": {
                    "reference": "Patient/a1"
                },
                "resourceType": "Encounter"
            }
        },
        {
            "fullUrl": "urn:id:ad6c5daa-8761-4d11-951e-2b415c888983",
            "request": {
                "method": "PUT",
                "url": "Observation/ad6c5daa-8761-4d11-951e-2b415c888983"
            },
            "resource": {
                "id": "ad6c5daa-8761-4d11-951e-2b415c888983",
                "code": {
                    "coding": [
                        {
                            "code": "2552",
                            "display": "HRTRTMON"
                        }
                    ],
                    "text": "HRTRTMON"
                },
                "effectiveDateTime": "2018-05-20T23:00:00+08:00",
                "encounter": {
                    "reference": "Encounter/evb200"
                },
                "identifier": [
                    {
                        "value": "2552_bbf1993ab"
                    }
                ],
                "status": "final",
                "subject": {
                    "reference": "Patient/a1"
                },
                "valueQuantity": {
                    "value": 115.0
                },
                "resourceType": "Observation"
            }
        },
        {
            "fullUrl": "urn:id:d6dbb76c-f54b-4e65-8e08-b4fa8afea617",
            "request": {
                "method": "PUT",
                "url": "Observation/d6dbb76c-f54b-4e65-8e08-b4fa8afea617"
            },
            "resource": {
                "id": "d6dbb76c-f54b-4e65-8e08-b4fa8afea617",
                "code": {
                    "coding": [
                        {
                            "code": "8595",
                            "display": "BP Mean"
                        }
                    ],
                    "text": "BP Mean"
                },
                "effectiveDateTime": "2018-05-20T23:00:00+08:00",
                "encounter": {
                    "reference": "Encounter/evb200"
                },
                "identifier": [
                    {
                        "value": "8595_bbf1993ab"
                    }
                ],
                "referenceRange": [
                    {
                        "high": {
                            "unit": "MM HG"
                        },
                        "low": {
                            "unit": "MM HG"
                        }
                    }
                ],
                "status": "final",
                "subject": {
                    "reference": "Patient/a1"
                },
                "valueQuantity": {
                    "unit": "MM HG",
                    "value": 88.0
                },
                "resourceType": "Observation"
            }
        },
        {
            "fullUrl": "urn:id:a1be7bfb-1d1b-4117-b8da-f27b7df1fef3",
            "request": {
                "method": "PUT",
                "url": "Observation/a1be7bfb-1d1b-4117-b8da-f27b7df1fef3"
            },
            "resource": {
                "id": "a1be7bfb-1d1b-4117-b8da-f27b7df1fef3",
                "code": {
                    "coding": [
                        {
                            "code": "7402",
                            "display": "SpO2"
                        }
                    ],
                    "text": "SpO2"
                },
                "effectiveDateTime": "2018-05-20T23:00:00+08:00",
                "encounter": {
                    "reference": "Encounter/evb200"
                },
                "identifier": [
                    {
                        "value": "7402_bbf1993ab"
                    }
                ],
                "referenceRange": [
                    {
                        "high": {
                            "unit": "%"
                        },
                        "low": {
                            "unit": "%"
                        }
                    }
                ],
                "status": "final",
                "subject": {
                    "reference": "Patient/a1"
                },
                "valueQuantity": {
                    "unit": "%",
                    "value": 98.0
                },
                "resourceType": "Observation"
            }
        },
        {
            "fullUrl": "urn:id:e5f50fa0-eda4-4e5d-badf-738defe717da",
            "request": {
                "method": "PUT",
                "url": "Observation/e5f50fa0-eda4-4e5d-badf-738defe717da"
            },
            "resource": {
                "id": "e5f50fa0-eda4-4e5d-badf-738defe717da",
                "code": {
                    "coding": [
                        {
                            "code": "6101",
                            "display": "BP"
                        }
                    ],
                    "text": "BP"
                },
                "effectiveDateTime": "2018-05-20T23:00:00+08:00",
                "encounter": {
                    "reference": "Encounter/evb200"
                },
                "identifier": [
                    {
                        "value": "6101_bbf1993ab"
                    }
                ],
                "status": "final",
                "subject": {
                    "reference": "Patient/a1"
                },
                "resourceType": "Observation"
            }
        },
        {
            "fullUrl": "urn:id:b9931faa-54bb-4952-9cbb-00a15c2ffb3e",
            "request": {
                "method": "PUT",
                "url": "Observation/b9931faa-54bb-4952-9cbb-00a15c2ffb3e"
            },
            "resource": {
                "id": "b9931faa-54bb-4952-9cbb-00a15c2ffb3e",
                "code": {
                    "coding": [
                        {
                            "code": "7302",
                            "display": "Resp Rate"
                        }
                    ],
                    "text": "Resp Rate"
                },
                "effectiveDateTime": "2018-05-20T23:00:00+08:00",
                "encounter": {
                    "reference": "Encounter/evb200"
                },
                "identifier": [
                    {
                        "value": "7302_bbf1993ab"
                    }
                ],
                "status": "final",
                "subject": {
                    "reference": "Patient/a1"
                },
                "valueQuantity": {
                    "value": 19.0
                },
                "resourceType": "Observation"
            }
        },
        {
            "fullUrl": "urn:id:d0f08795-5a6b-4819-a9ea-996e74f4bf63",
            "request": {
                "method": "PUT",
                "url": "Observation/d0f08795-5a6b-4819-a9ea-996e74f4bf63"
            },
            "resource": {
                "id": "d0f08795-5a6b-4819-a9ea-996e74f4bf63",
                "code": {
                    "coding": [
                        {
                            "code": "7303",
                            "display": "Temp"
                        }
                    ],
                    "text": "Temp"
                },
                "effectiveDateTime": "2018-05-20T23:00:00+08:00",
                "encounter": {
                    "reference": "Encounter/evb200"
                },
                "identifier": [
                    {
                        "value": "7303_bbf1993ab"
                    }
                ],
                "referenceRange": [
                    {
                        "high": {
                            "unit": "\u00b0F"
                        },
                        "low": {
                            "unit": "\u00b0F"
                        }
                    }
                ],
                "status": "final",
                "subject": {
                    "reference": "Patient/a1"
                },
                "valueQuantity": {
                    "unit": "\u00b0F",
                    "value": 97.3
                },
                "resourceType": "Observation"
            }
        },
        {
            "fullUrl": "urn:id:9a20000f-d5b3-4daa-b00c-c95c02d74c5d",
            "request": {
                "method": "PUT",
                "url": "Observation/9a20000f-d5b3-4daa-b00c-c95c02d74c5d"
            },
            "resource": {
                "id": "9a20000f-d5b3-4daa-b00c-c95c02d74c5d",
                "code": {
                    "coding": [
                        {
                            "code": "3141-9",
                            "display": "Body Weight"
                        }
                    ],
                    "text": "Body Weight"
                },
                "effectiveDateTime": "2018-05-20T23:00:00+08:00",
                "encounter": {
                    "reference": "Encounter/evb200"
                },
                "identifier": [
                    {
                        "value": "3141-9_bbf1993ab"
                    }
                ],
                "interpretation": [
                    {
                        "coding": [
                            {
                                "code": "L",
                                "display": "Low",
                                "system": "http://terminology.hl7.org/CodeSystem/v2-0078"
                            }
                        ],
                        "text": "L"
                    }
                ],
                "referenceRange": [
                    {
                        "high": {
                            "unit": "pounds",
                            "value": 204.0
                        },
                        "low": {
                            "unit": "pounds",
                            "value": 91.0
                        },
                        "text": "91-204"
                    }
                ],
                "status": "final",
                "subject": {
                    "reference": "Patient/a1"
                },
                "valueString": "185.3",
                "resourceType": "Observation"
            }
        },
        {
            "fullUrl": "urn:id:2b0e5bfd-9e21-489f-a6e6-a93eead79eb6",
            "request": {
                "method": "PUT",
                "url": "Observation/2b0e5bfd-9e21-489f-a6e6-a93eead79eb6"
            },
            "resource": {
                "id": "2b0e5bfd-9e21-489f-a6e6-a93eead79eb6",
                "code": {
                    "coding": [
                        {
                            "code": "3137-7",
                            "display": "Body Height"
                        }
                    ],
                    "text": "Body Height"
                },
                "effectiveDateTime": "2018-05-20T23:00:00+08:00",
                "encounter": {
                    "reference": "Encounter/evb200"
                },
                "identifier": [
                    {
                        "value": "3137-7_bbf1993ab"
                    }
                ],
                "interpretation": [
                    {
                        "coding": [
                            {
                                "code": "N",
                                "display": "Normal",
                                "system": "http://terminology.hl7.org/CodeSystem/v2-0078"
                            }
                        ],
                        "text": "N"
                    }
                ],
                "referenceRange": [
                    {
                        "high": {
                            "unit": "Cm",
                            "value": 78.0
                        },
                        "low": {
                            "unit": "Cm",
                            "value": 55.0
                        },
                        "text": "55-78"
                    }
                ],
                "status": "final",
                "subject": {
                    "reference": "Patient/a1"
                },
                "valueString": "162",
                "resourceType": "Observation"
            }
        },
        {
            "fullUrl": "urn:id:80cc2cfe-9caf-48ab-9739-7adb82b07254",
            "request": {
                "method": "PUT",
                "url": "DiagnosticReport/80cc2cfe-9caf-48ab-9739-7adb82b07254"
            },
            "resource": {
                "id": "80cc2cfe-9caf-48ab-9739-7adb82b07254",
                "code": {
                    "coding": [
                        {
                            "code": "1122",
                            "display": "Final Echocardiogram Report"
                        }
                    ],
                    "text": "Final Echocardiogram Report"
                },
                "effectiveDateTime": "2018-05-20T23:00:00+08:00",
                "encounter": {
                    "reference": "Encounter/evb200"
                },
                "identifier": [
                    {
                        "value": "bbf1993ab"
                    }
                ],
                "result": [
                    {
                        "reference": "Observation/ad6c5daa-8761-4d11-951e-2b415c888983"
                    },
                    {
                        "reference": "Observation/d6dbb76c-f54b-4e65-8e08-b4fa8afea617"
                    },
                    {
                        "reference": "Observation/a1be7bfb-1d1b-4117-b8da-f27b7df1fef3"
                    },
                    {
                        "reference": "Observation/e5f50fa0-eda4-4e5d-badf-738defe717da"
                    },
                    {
                        "reference": "Observation/b9931faa-54bb-4952-9cbb-00a15c2ffb3e"
                    },
                    {
                        "reference": "Observation/d0f08795-5a6b-4819-a9ea-996e74f4bf63"
                    },
                    {
                        "reference": "Observation/9a20000f-d5b3-4daa-b00c-c95c02d74c5d"
                    },
                    {
                        "reference": "Observation/2b0e5bfd-9e21-489f-a6e6-a93eead79eb6"
                    }
                ],
                "resultsInterpreter": [
                    {
                        "reference": "Practitioner/8b3f171a-ff0a-40e3-9fa1-e65ddfe3a1a6"
                    }
                ],
                "status": "final",
                "subject": {
                    "reference": "Patient/a1"
                },
                "resourceType": "DiagnosticReport"
            }
        },
        {
            "fullUrl": "urn:id:8b3f171a-ff0a-40e3-9fa1-e65ddfe3a1a6",
            "request": {
                "method": "PUT",
                "url": "Practitioner/8b3f171a-ff0a-40e3-9fa1-e65ddfe3a1a6"
            },
            "resource": {
                "id": "8b3f171a-ff0a-40e3-9fa1-e65ddfe3a1a6",
                "identifier": [
                    {
                        "value": "770469"
                    }
                ],
                "name": [
                    {
                        "prefix": [
                            "1234"
                        ],
                        "suffix": [
                            "A"
                        ],
                        "text": "1234 A"
                    }
                ],
                "resourceType": "Practitioner"
            }
        },
        {
            "fullUrl": "urn:id:4",
            "request": {
                "method": "PUT",
                "url": "Observation/4"
            },
            "resource": {
                "id": "4",
                "code": {
                    "coding": [
                        {
                            "code": "2552",
                            "display": "HRTRTMON"
                        }
                    ],
                    "text": "HRTRTMON"
                },
                "effectiveDateTime": "2018-05-20T23:00:00+08:00",
                "encounter": {
                    "reference": "Encounter/evb200"
                },
                "identifier": [
                    {
                        "value": "2552_bbf1993ab"
                    }
                ],
                "status": "final",
                "subject": {
                    "reference": "Patient/a1"
                },
                "valueQuantity": {
                    "value": 115.0
                },
                "resourceType": "Observation"
            }
        }
    ],
    "type": "transaction",
    "resourceType": "Bundle"
}