{
    "primaryPatientResourceId": "a1",
    "primaryPatientResourceEntry": null,
    "patientBatch": [
        {
            "id": "9a0db1b9-5850-415d-a2af-73f34b562424",
            "meta": {
                "lastUpdated": "2021-03-23T22:13:39.903+00:00"
            },
            "resourceType": "Bundle",
            "type": "collection",
            "entry": [
                {
                    "fullUrl": "urn:uuid:Patient/eb1be64c-42f2-47ae-92c6-60b6f4de40a4",
                    "resource": {
                        "birthDate": "1984-08-23",
                        "gender": "unknown",
                        "id": "eb1be64c-42f2-47ae-92c6-60b6f4de40a4",
                        "identifier": [
                            {
                                "assigner": {
                                    "reference": "Organization/MRN"
                                },
                                "value": "000065432"
                            }
                        ],
                        "name": [
                            {
                                "family": "ROSTENKOWSKI",
                                "given": [
                                    "BERNADETTE"
                                ]
                            }
                        ],
                        "resourceType": "Patient"
                    }
                },
                {
                    "fullUrl": "urn:uuid:Organization/MRN",
                    "resource": {
                        "id": "MRN",
                        "name": "Assigning Authority",
                        "resourceType": "Organization"
                    }
                },
                {
                    "fullUrl": "urn:uuid:Observation/ad6c5daa-8761-4d11-951e-2b415c888983",
                    "resource": {
                        "code": {
                            "coding": [
                                {
                                    "code": "2552",
                                    "display": "HRTRTMON"
                                }
                            ],
                            "text": "HRTRTMON"
                        },
                        "effectiveDateTime": "2018-05-20T23:00:00+08:00",
                        "id": "ad6c5daa-8761-4d11-951e-2b415c888983",
                        "identifier": [
                            {
                                "value": "2552_bbf1993ab"
                            }
                        ],
                        "resourceType": "Observation",
                        "status": "final",
                        "subject": {
                            "reference": "Patient/eb1be64c-42f2-47ae-92c6-60b6f4de40a4"
                        },
                        "valueQuantity": {
                            "value": 115.0
                        },
                        "encounter": {
                            "reference": "Encounter/example"
                        }
                    }
                },
                {
                    "fullUrl": "urn:uuid:Observation/d6dbb76c-f54b-4e65-8e08-b4fa8afea617",
                    "resource": {
                        "code": {
                            "coding": [
                                {
                                    "code": "8595",
                                    "display": "BP Mean"
                                }
                            ],
                            "text": "BP Mean"
                        },
                        "effectiveDateTime": "2018-05-20T23:00:00+08:00",
                        "id": "d6dbb76c-f54b-4e65-8e08-b4fa8afea617",
                        "identifier": [
                            {
                                "value": "8595_bbf1993ab"
                            }
                        ],
                        "referenceRange": [
                            {
                                "high": {
                                    "unit": "MM HG"
                                },
                                "low": {
                                    "unit": "MM HG"
                                }
                            }
                        ],
                        "resourceType": "Observation",
                        "status": "final",
                        "subject": {
                            "reference": "Patient/eb1be64c-42f2-47ae-92c6-60b6f4de40a4"
                        },
                        "valueQuantity": {
                            "unit": "MM HG",
                            "value": 88.0
                        },
                        "encounter": {
                            "reference": "Encounter/example"
                        }
                    }
                },
                {
                    "fullUrl": "urn:uuid:Observation/a1be7bfb-1d1b-4117-b8da-f27b7df1fef3",
                    "resource": {
                        "code": {
                            "coding": [
                                {
                                    "code": "7402",
                                    "display": "SpO2"
                                }
                            ],
                            "text": "SpO2"
                        },
                        "effectiveDateTime": "2018-05-20T23:00:00+08:00",
                        "id": "a1be7bfb-1d1b-4117-b8da-f27b7df1fef3",
                        "identifier": [
                            {
                                "value": "7402_bbf1993ab"
                            }
                        ],
                        "referenceRange": [
                            {
                                "high": {
                                    "unit": "%"
                                },
                                "low": {
                                    "unit": "%"
                                }
                            }
                        ],
                        "resourceType": "Observation",
                        "status": "final",
                        "subject": {
                            "reference": "Patient/eb1be64c-42f2-47ae-92c6-60b6f4de40a4"
                        },
                        "valueQuantity": {
                            "unit": "%",
                            "value": 98.0
                        },
                        "encounter": {
                            "reference": "Encounter/example"
                        }
                    }
                },
                {
                    "fullUrl": "urn:uuid:Observation/e5f50fa0-eda4-4e5d-badf-738defe717da",
                    "resource": {
                        "code": {
                            "coding": [
                                {
                                    "code": "6101",
                                    "display": "BP"
                                }
                            ],
                            "text": "BP"
                        },
                        "effectiveDateTime": "2018-05-20T23:00:00+08:00",
                        "id": "e5f50fa0-eda4-4e5d-badf-738defe717da",
                        "identifier": [
                            {
                                "value": "6101_bbf1993ab"
                            }
                        ],
                        "resourceType": "Observation",
                        "status": "final",
                        "subject": {
                            "reference": "Patient/eb1be64c-42f2-47ae-92c6-60b6f4de40a4"
                        },
                        "encounter": {
                            "reference": "Encounter/example"
                        }
                    }
                },
                {
                    "fullUrl": "urn:uuid:Encounter/example",
                    "resource": {
                        "identifier": [
                            {
                                "value": "visit104"
                            }
                        ],
                        "resourceType": "Encounter",
                        "id": "example",
                        "status": "in-progress",
                        "class": {
                            "system": "http://terminology.hl7.org/CodeSystem/v3-ActCode",
                            "code": "IMP",
                            "display": "inpatient encounter"
                        },
                        "subject": {
                            "reference": "Patient/eb1be64c-42f2-47ae-92c6-60b6f4de40a4"
                        }
                    }
                },
                {
                    "fullUrl": "urn:uuid:Observation/b9931faa-54bb-4952-9cbb-00a15c2ffb3e",
                    "resource": {
                        "code": {
                            "coding": [
                                {
                                    "code": "7302",
                                    "display": "Resp Rate"
                                }
                            ],
                            "text": "Resp Rate"
                        },
                        "effectiveDateTime": "2018-05-20T23:00:00+08:00",
                        "id": "b9931faa-54bb-4952-9cbb-00a15c2ffb3e",
                        "identifier": [
                            {
                                "value": "7302_bbf1993ab"
                            }
                        ],
                        "resourceType": "Observation",
                        "status": "final",
                        "subject": {
                            "reference": "Patient/eb1be64c-42f2-47ae-92c6-60b6f4de40a4"
                        },
                        "valueQuantity": {
                            "value": 19.0
                        },
                        "encounter": {
                            "reference": "Encounter/example"
                        }
                    }
                },
                {
                    "fullUrl": "urn:uuid:Observation/d0f08795-5a6b-4819-a9ea-996e74f4bf63",
                    "resource": {
                        "code": {
                            "coding": [
                                {
                                    "code": "7303",
                                    "display": "Temp"
                                }
                            ],
                            "text": "Temp"
                        },
                        "effectiveDateTime": "2018-05-20T23:00:00+08:00",
                        "id": "d0f08795-5a6b-4819-a9ea-996e74f4bf63",
                        "identifier": [
                            {
                                "value": "7303_bbf1993ab"
                            }
                        ],
                        "referenceRange": [
                            {
                                "high": {
                                    "unit": "\u00b0F"
                                },
                                "low": {
                                    "unit": "\u00b0F"
                                }
                            }
                        ],
                        "resourceType": "Observation",
                        "status": "final",
                        "subject": {
                            "reference": "Patient/eb1be64c-42f2-47ae-92c6-60b6f4de40a4"
                        },
                        "valueQuantity": {
                            "unit": "\u00b0F",
                            "value": 97.3
                        },
                        "encounter": {
                            "reference": "Encounter/example"
                        }
                    }
                },
                {
                    "fullUrl": "urn:uuid:Observation/9a20000f-d5b3-4daa-b00c-c95c02d74c5d",
                    "resource": {
                        "code": {
                            "coding": [
                                {
                                    "code": "3141-9",
                                    "display": "Body Weight"
                                }
                            ],
                            "text": "Body Weight"
                        },
                        "effectiveDateTime": "2018-05-20T23:00:00+08:00",
                        "id": "9a20000f-d5b3-4daa-b00c-c95c02d74c5d",
                        "identifier": [
                            {
                                "value": "3141-9_bbf1993ab"
                            }
                        ],
                        "interpretation": [
                            {
                                "coding": [
                                    {
                                        "code": "L",
                                        "display": "Low",
                                        "system": "http://terminology.hl7.org/CodeSystem/v2-0078"
                                    }
                                ],
                                "text": "L"
                            }
                        ],
                        "referenceRange": [
                            {
                                "high": {
                                    "unit": "pounds",
                                    "value": 204.0
                                },
                                "low": {
                                    "unit": "pounds",
                                    "value": 91.0
                                },
                                "text": "91-204"
                            }
                        ],
                        "resourceType": "Observation",
                        "status": "final",
                        "subject": {
                            "reference": "Patient/eb1be64c-42f2-47ae-92c6-60b6f4de40a4"
                        },
                        "valueString": "185.3",
                        "encounter": {
                            "reference": "Encounter/example"
                        }
                    }
                },
                {
                    "fullUrl": "urn:uuid:Observation/2b0e5bfd-9e21-489f-a6e6-a93eead79eb6",
                    "resource": {
                        "code": {
                            "coding": [
                                {
                                    "code": "3137-7",
                                    "display": "Body Height"
                                }
                            ],
                            "text": "Body Height"
                        },
                        "effectiveDateTime": "2018-05-20T23:00:00+08:00",
                        "id": "2b0e5bfd-9e21-489f-a6e6-a93eead79eb6",
                        "identifier": [
                            {
                                "value": "3137-7_bbf1993ab"
                            }
                        ],
                        "interpretation": [
                            {
                                "coding": [
                                    {
                                        "code": "N",
                                        "display": "Normal",
                                        "system": "http://terminology.hl7.org/CodeSystem/v2-0078"
                                    }
                                ],
                                "text": "N"
                            }
                        ],
                        "referenceRange": [
                            {
                                "high": {
                                    "unit": "Cm",
                                    "value": 78.0
                                },
                                "low": {
                                    "unit": "Cm",
                                    "value": 55.0
                                },
                                "text": "55-78"
                            }
                        ],
                        "resourceType": "Observation",
                        "status": "final",
                        "subject": {
                            "reference": "Patient/eb1be64c-42f2-47ae-92c6-60b6f4de40a4"
                        },
                        "valueString": "162",
                        "encounter": {
                            "reference": "Encounter/example"
                        }
                    }
                },
                {
                    "fullUrl": "urn:uuid:DiagnosticReport/80cc2cfe-9caf-48ab-9739-7adb82b07254",
                    "resource": {
                        "code": {
                            "coding": [
                                {
                                    "code": "1122",
                                    "display": "Final Echocardiogram Report"
                                }
                            ],
                            "text": "Final Echocardiogram Report"
                        },
                        "effectiveDateTime": "2018-05-20T23:00:00+08:00",
                        "id": "80cc2cfe-9caf-48ab-9739-7adb82b07254",
                        "identifier": [
                            {
                                "value": "bbf1993ab"
                            }
                        ],
                        "resourceType": "DiagnosticReport",
                        "result": [
                            {
                                "reference": "Observation/ad6c5daa-8761-4d11-951e-2b415c888983"
                            },
                            {
                                "reference": "Observation/d6dbb76c-f54b-4e65-8e08-b4fa8afea617"
                            },
                            {
                                "reference": "Observation/a1be7bfb-1d1b-4117-b8da-f27b7df1fef3"
                            },
                            {
                                "reference": "Observation/e5f50fa0-eda4-4e5d-badf-738defe717da"
                            },
                            {
                                "reference": "Observation/b9931faa-54bb-4952-9cbb-00a15c2ffb3e"
                            },
                            {
                                "reference": "Observation/d0f08795-5a6b-4819-a9ea-996e74f4bf63"
                            },
                            {
                                "reference": "Observation/9a20000f-d5b3-4daa-b00c-c95c02d74c5d"
                            },
                            {
                                "reference": "Observation/2b0e5bfd-9e21-489f-a6e6-a93eead79eb6"
                            }
                        ],
                        "resultsInterpreter": [
                            {
                                "reference": "Practitioner/8b3f171a-ff0a-40e3-9fa1-e65ddfe3a1a6"
                            }
                        ],
                        "status": "final",
                        "subject": {
                            "reference": "Patient/eb1be64c-42f2-47ae-92c6-60b6f4de40a4"
                        },
                        "encounter": {
                            "reference": "Encounter/example"
                        }
                    }
                },
                {
                    "fullUrl": "urn:uuid:Practitioner/8b3f171a-ff0a-40e3-9fa1-e65ddfe3a1a6",
                    "resource": {
                        "id": "8b3f171a-ff0a-40e3-9fa1-e65ddfe3a1a6",
                        "identifier": [
                            {
                                "value": "770469"
                            }
                        ],
                        "name": [
                            {
                                "prefix": [
                                    "1234"
                                ],
                                "suffix": [
                                    "A"
                                ],
                                "text": "1234 A"
                            }
                        ],
                        "resourceType": "Practitioner"
                    }
                }
            ]
        },
        {
            "id": "9a0db1b9-5850-415d-a2af-73f34b562424",
            "meta": {
                "lastUpdated": "2021-03-23T22:14:00.903+00:00"
            },
            "resourceType": "Bundle",
            "type": "collection",
            "entry": [
                {
                    "fullUrl": "urn:uuid:Patient/eb1be64c-42f2-47ae-92c6-60b6f4de40a4",
                    "resource": {
                        "birthDate": "1984-08-23",
                        "gender": "unknown",
                        "id": "eb1be64c-42f2-47ae-92c6-60b6f4de40a4",
                        "identifier": [
                            {
                                "assigner": {
                                    "reference": "Organization/MRN"
                                },
                                "value": "000065432"
                            }
                        ],
                        "name": [
                            {
                                "family": "ROSTENKOWSKI",
                                "given": [
                                    "BERNADETTE"
                                ]
                            }
                        ],
                        "resourceType": "Patient"
                    }
                },
                {
                    "fullUrl": "urn:uuid:Organization/MRN",
                    "resource": {
                        "id": "MRN",
                        "name": "Assigning Authority",
                        "resourceType": "Organization"
                    }
                },
                {
                    "fullUrl": "urn:uuid:Observation/4",
                    "resource": {
                        "code": {
                            "coding": [
                                {
                                    "code": "2552",
                                    "display": "HRTRTMON"
                                }
                            ],
                            "text": "HRTRTMON"
                        },
                        "effectiveDateTime": "2018-05-20T23:00:00+08:00",
                        "id": "4",
                        "identifier": [
                            {
                                "value": "2552_bbf1993ab"
                            }
                        ],
                        "resourceType": "Observation",
                        "status": "final",
                        "subject": {
                            "reference": "Patient/eb1be64c-42f2-47ae-92c6-60b6f4de40a4"
                        },
                        "encounter": {
                            "reference": "Encounter/12345"
                        },
                        "valueQuantity": {
                            "value": 115.0
                        }
                    }
                },
                {
                    "fullUrl": "urn:id:12345",
                    "resource": {
                        "resourceType": "Encounter",
                        "identifier": [
                            {
                                "value": "visit104"
                            }
                        ],
                        "id": "12345",
                        "status": "finished",
                        "class": {
                            "system": "http://terminology.hl7.org/CodeSystem/v3-ActCode",
                            "code": "OBSENC",
                            "display": "observation encounter"
                        },
                        "meta": {
                            "lastUpdated": "2021-03-23T22:13:45.903+00:00"
                        },
                        "subject": {
                            "reference": "Patient/patient-ghij"
                        }
                    }
                }
            ]
        },
        {
            "id": "9a0db1b9-5850-415d-a2af-73f34b562424",
            "resourceType": "Bundle",
            "type": "collection",
            "entry": [
                {
                    "fullUrl": "patient-ghij",
                    "request": {
                        "method": "PUT",
                        "url": "Patient/patient-ghij"
                    },
                    "meta": {
                        "lastUpdated": "2021-03-23T22:13:45.903+00:00"
                    },
                    "resource": {
                        "active": true,
                        "id": "patient-ghij",
                        "gender": "female",
                        "identifier": [
                            {
                                "system": "urn:oid:2.16.840.1.113883.2.4.6.3",
                                "use": "usual",
                                "value": "738472983"
                            },
                            {
                                "system": "urn:oid:2.16.840.1.113883.2.4.6.3",
                                "use": "usual"
                            }
                        ],
                        "name": [
                            {
                                "family": "LastName",
                                "given": [
                                    "first",
                                    "middle"
                                ]
                            }
                        ],
                        "resourceType": "Patient"
                    }
                },
                {
                    "fullUrl": "urn:id:evb200",
                    "resource": {
                        "resourceType": "Encounter",
                        "identifier": [
                            {
                                "value": "visit104"
                            }
                        ],
                        "id": "evb200",
                        "status": "finished",
                        "subject": {
                            "reference": "Patient/patient-ghij"
                        }
                    }
                }
            ]
        }
    ]
}